File: GRASSHOPPER/ClassExamples/Regression/beamdata.csv
load (lbf),span (in),inertia (in4),deflection (in)
151.329,414,885.547,2.286286
84.3313,289,554.502,0.496337
122.701,475,612.492,4.670715
115.205,392,503.781,2.560022
128.651,447,851.544,2.699268
112.366,436,541.324,3.388983
90.99707,408,947.977,1.298047
137.639,371,549.621,2.178772
158.806,311,550.71,1.254929
111.983,247,843.546,0.230134
131.326,361,520.261,2.055054
84.6702,458,980.785,1.764464
128.133,275,671.106,0.504736
127.238,389,536.673,2.600335
110.256,438,537.125,3.407357
140.116,390,826.566,1.854193
90.4061,261,542.863,0.344473
125.927,438,584.484,3.628438
120.6,397,774.85,1.887539
118.488,415,537.737,3.114901
116.748,285,897.524,0.383039
118.98,401,524.699,2.791652
91.0828,430,721.656,1.960078
148.919,365,827.454,1.444005
85.835,437,962.657,1.584396
136.068,390,814.361,1.731173
130.444,293,946.669,0.459475
84.6148,403,923.471,1.116154
143.333,386,832.467,1.722836
158.646,403,645.34,3.044685
145.982,241,939.216,0.25151
102.707,308,878.533,0.488989
84.1271,333,599.166,0.771073
108.382,368,708.04,1.286986
153.705,443,922.718,3.086326
88.9978,336,617.462,0.824516
124.015,388,775.896,1.603663
133.6,281,943.992,0.420418
124.63,479,623.1701,5.077607
100.314,442,761.581,2.305917
149.017,473,689.584,5.072179
165.301,435,949.315,2.882287
116.959,401,519,2.634058
129.936,352,506.233,1.793198
124.525,295,681.135,0.671436
123.751,245,876.214,0.227614
91.9854,459,504.364,3.597456
133.118,478,647.746,5.211851
123.099,472,861.088,3.167461
87.4574,341,617.479,0.858717
95.9411,301,851.617,0.42691
144.612,452,654.559,4.297879
152.006,325,544.114,1.515504
131.701,269,675.4,0.473176
84.4603,303,818.797,0.397269
140.992,272,956.24,0.36788
143.553,322,765.915,0.948911
129.231,411,565.411,2.984563
162.307,304,553.129,1.168572
130.823,358,765.366,1.312224
148.453,299,756.493,0.740112
127.825,476,629.332,5.041073
136.696,262,682.906,0.438747
95.6716,416,720.214,1.811951
158.903,378,869.953,1.790219
140.233,347,782.542,1.162772
91.5313,322,859.714,0.527406
134.139,480,652.168,5.309428
92.9157,478,526.41,4.321019
141.744,240,675.732,0.324484
164.686,448,710.601,4.210551
103.069,439,766.616,2.295444
120.555,392,770.212,1.803528
106.324,432,769.13,2.330113
146.077,286,986.295,0.454485
124.805,368,508.14,2.043792
84.264,264,778.094,0.239336
96.851,375,931.148,0.957686
145.541,377,828.985,1.60014
132.399,269,927.322,0.35536
153.993,301,525.887,1.168065
153.464,311,533.973,1.244631
124.041,468,610.013,4.470057
123.135,455,843.435,2.788191
88.5877,372,653.707,1.229174
87.3716,341,867.563,0.658049
100.425,459,779.416,2.761115
120.018,352,726.733,1.231706
122.034,365,746.017,1.41473
143.685,359,805.3,1.40127
153.586,388,614.621,2.51145
139.637,422,858.113,2.326902
146.693,387,843.484,1.763953
145.411,447,652.347,4.14864
163.002,399,654.87,2.972646
122.316,278,656.759,0.537501
116.256,476,595.082,4.800373
151.307,364,833.231,1.444069
147.844,268,972.601,0.359544
99.6865,421,737.761,1.941523
142.8765,283,723.558,0.593758
157.423,295,529.442,1.096806
98.82,356,917.603,0.805244
145.65,431,635.516,3.681133
124.477,366,754.704,1.37653
86.6306,350,874.106,0.71885
152.681,427,652.542,3.461129
107.245,351,937.762,0.81378
116.011,457,824.482,2.859933
161.078,420,921.103,2.628566
96.5737,478,537.66,4.411638
123.484,472,611.946,4.588911
141.265,253,937.568,0.295261
125.017,448,591.378,3.897227
113.945,478,590.002,4.582407
94.41505,408,958.433,1.209101
87.18353,365,891.296,0.800444
102.125,331,650.697,0.89916
159.101,440,685.341,3.900603
109.966,369,963.856,0.995793
143.423,460,659.329,4.538286
120.981,297,672.138,0.677198
116.998,418,536.7,3.01394
107.855,284,619.264,0.514581
131.177,297,952.569,0.510214
98.9992,464,780.255,2.70055
164.187,302,806.855,0.810122
109.742,414,760.734,2.053312
103.518,388,964.217,1.084567
141.315,404,595.285,3.071145
106.574,390,976.335,1.187932
88.251,464,997.832,1.816294
89.4775,458,995.086,1.753791
114.992,428,540.892,3.394112
102.394,295,614.756,0.57071
166.026,401,916.08,2.269057
119.736,279,649.849,0.538292
135.546,258,675.385,0.433725
95.3397,458,762.596,2.515824
153.355,337,810.936,1.103752
152.493,458,934.734,3.287975
159.012,262,750.369,0.450621
91.2814,316,852.59,0.516316
110.351,342,687.574,1.005687
135.883,320,991.179,0.688975
92.8272,449,746.696,2.303488
144.706,265,960.475,0.356872
157.554,273,756.99,0.54849
142.907,364,807.736,1.395982
164.142,316,821.096,0.90896
142.669,297,987.239,0.540842
91.2603,304,840.165,0.426568
142.192,469,914.867,3.415816
118.853,335,705.6533,0.978445
90.9518,398,687.8396,1.501787
106.045,387,721.187,1.588616
106.774,391,977.2999,1.142114
145.361,281,979.254,0.423991
114.503,426,536.886,3.176116
109.953,358,702.573,1.238749
118.437,266,632.123,0.451156
85.37447,477,753.147,2.66497
115.967,376,739.517,1.520982
158.476,367,607.209,2.21454
122.205,466,601.88,4.379086
145.545,324,774.16,0.92948
102.661,284,853.714,0.362685
125.273,244,879.827,0.237779
97.2327,370,676.609,1.28502
105.666,262,840.089,0.288677
136.141,338,760.868,1.040133
136.103,258,927.268,0.294682
156.596,251,731.081,0.402104
93.7778,332,627.463,0.818228
116.836,323,937.248,0.639698
99.9986,421,738.987,2.043828
139.632,304,985.758,0.552658
107.472,278,611.898,0.500366
110.929,376,724.017,1.408338
162.214,430,934.611,2.871946
144.379,371,569.483,2.219231
129.7345,363,766.842,1.372201
95.7665,357,659.419,1.12267
97.8163,268,822.588,0.296946
94.231,340,636.755,0.93823
136.544,284,705.003,0.58734
86.7162,292,814.185,0.354112
127.865,304,950.508,0.519201
144.146,351,548.119,1.932919
84.1289,270,533.118,0.371972
133,282,942.349,0.40429
117.201,296,660.342,0.624946
127.276,312,707.273,0.830314
99.8729,302,614.522,0.642103
125.183,364,755.064,1.286627
99.1658,261,819.328,0.258946
143.728,404,851.579,2.135579
130.067,462,871.759,3.051008
117.08,298,661.309,0.640424
131.301,445,607.02,4.100194
113.645,278,630.639,0.491143
125.714,365,757.518,1.302884
89.4318,295,575.531,0.526031
126.247,430,576.709,3.422604
144.801,308,754.808,0.812744
122.194,412,795.853,2.063222
141.692,439,631.849,3.866247
103.337,387,963.028,1.128578
110.037,321,664.766,0.843837
120.393,473,853.545,3.308148
115.483,354,715.481,1.167933
99.6731,356,919.584,0.770541
90.9041,411,950.861,1.268099
143.188,411,857.844,2.262921
115.324,369,980.54,0.980797
157.338,458,949.458,3.354663
91.3595,246,529.837,0.295942
143.169,414,610.841,3.192207
99.27336,288,847.816,0.391225
106.592,420,757.585,2.015035
101.065,253,566.374,0.34586
134.887,421,592.811,3.291488
128.651,269,666.674,0.466996
118.361,240,605.157,0.311277
102.753,310,631.319,0.68137
152.498,326,797.587,0.975372
134.279,245,657.691,0.340829
152.219,432,906.152,2.671606
158.839,390,882.478,1.904537
133.32,395,561.553,2.650415
158.582,343,582.839,1.757325
93.5495,256,797.766,0.24262
146.823,243,943.187,0.247968
142.079,253,689.635,0.374557
116.587,269,880.417,0.308899
108.673,243,579.517,0.311104
132.242,276,683.924,0.546678
85.4608,412,685.386,1.703815
115.063,342,951.279,0.780406
141.018,427,867.414,2.566942
152.37,295,764.238,0.679586
116.776,317,930.383,0.567653
89.3883,322,853.522,0.543976
128.965,260,657.845,0.434584
166.271,453,970.875,3.51084
119.432,255,873.539,0.271255
164.336,459,970.663,3.654171
152.559,364,836.77,1.451506
141.365,242,926.071,0.237971
105.405,427,760.606,2.119455
164.002,244,746.602,0.352322
104.383,375,703.741,1.409049
132.703,399,563.628,2.736082
118.963,452,828.208,2.660401
137.398,344,520.156,1.779389
115.846,300,910.046,0.484537
124.839,418,560.178,3.103438
152.929,402,627.606,2.824688
159.109,396,639.459,2.872175
114.305,385,743.634,1.637908
84.8315,407,928.576,1.216738
128.691,327,977.099,0.682736
146.246,248,696.864,0.371913
113.178,317,919.93,0.554562
131.574,259,914.336,0.292203
104.719,441,523.644,3.570859
112.664,315,666.253,0.762016
152.631,341,563.368,1.699972
148.075,401,612.159,2.763295
120.406,392,769.738,1.802163
130.006,250,900.284,0.253931
95.9999,268,566.696,0.412187
147.497,289,743.959,0.619278
116.089,251,859.211,0.238305
133.163,282,943.444,0.425154
155.101,461,945.252,3.575818
164.629,409,669.605,3.249708
118.912,276,644.45,0.515734
101.918,354,674.393,1.135208
93.288,471,520.126,3.932245
132.767,370,783.282,1.489069
100.472,340,655.435,0.929573
146.282,438,644.719,3.891976
85.1912,338,607.297,0.861499
125.786,346,737.404,1.192821
95.3947,264,560.991,0.370035
128.984,384,787.203,1.66686
120.339,470,600.585,4.466143
165.871,289,548.358,0.936461
153.215,418,645.456,3.391752
166.423,392,657.136,2.685133
115.587,438,803.021,2.585854
153.866,465,695.721,4.865587
134.969,366,536.431,2.172248
157.576,429,669.902,3.56248
103.63,336,661.389,0.954982
151.113,342,559.466,1.798457
143.647,394,591.76,2.843694
113.349,410,766.923,2.028958
151.405,339,556.951,1.747265
150.854,299,764.538,0.745813
94.4024,244,787.526,0.20458
161.283,430,681.581,3.63012
85.0706,453,977.269,1.702568
123.778,472,612.858,4.827297
84.7883,426,697.672,1.899664
159.958,403,649.557,2.902564
132.126,341,751.904,1.054595
126.985,369,514.97,2.18483
159.006,290,529.502,1.035442
105.172,455,539.529,3.951443
117.34,358,974.523,0.890182
99.7534,286,597.569,0.503594
142.399,464,660.464,4.421946
111.157,348,946.298,0.770155
87.9049,444,726.483,2.132943
87.4856,289,813.154,0.343357
127.543,350,996.903,0.871572
91.0679,389,678.7001,1.460947
101.314,464,787.316,2.883404
142.732,301,741.364,0.705355
108.302,454,547.421,3.790241
140.402,327,761.54,0.990474
83.4186,349,863.476,0.657427
138.085,248,922.976,0.269792
155.529,316,545.38,1.319495
94.4526,257,801.434,0.235937
93.8586,281,574.504,0.480203
161.062,357,855.47,1.467908
105.828,253,831.468,0.253814
158.484,290,527.104,0.986748
162.109,325,824.885,1.049933
160.254,347,592.628,1.833037
134.231,455,876.71,3.107137
160.792,431,681.702,3.651135
114.879,269,625.351,0.439015
121.733,360,990.335,0.933292
135.733,329,500.0756,1.525326
116.218,254,862.959,0.262247
148.185,441,653.738,4.003997
107.162,351,686.955,1.082365
100.54,277,590.566,0.45182
164.58,321,578.148,1.344469
83.9317,348,614.108,0.943107
144.488,251,695.055,0.36689
151.851,307,775.545,0.8239
140.135,278,710.271,0.523402
109.075,350,691.372,1.139014
115.683,242,849.625,0.218112
153.916,264,986.82,0.366779
89.9771,285,816.461,0.333251
160.201,278,520.037,0.89682
99.0606,349,911.146,0.750472
161.995,467,972.663,3.663342
165.868,339,600.938,1.711466
119.733,417,793.769,2.01755
96.1084,316,868.006,0.536244
108.982,408,502.331,2.839334
86.459,413,689.263,1.732396
130.401,364,769.869,1.320857
105.86,350,932.549,0.797527
149.627,321,783.642,0.959845
146.955,289,741.791,0.618457
92.6593,267,806.029,0.267934
157.756,470,963.264,3.868622
84.4508,321,588.023,0.680367
130.98,340,747.12,1.093058
163.707,301,554.241,1.075236
160.993,399,648.323,2.960222
157.476,397,636.401,2.738729
146.993,253,954.665,0.288573
157.307,280,513.55,0.871813
97.1909,450,760.144,2.521849
92.1659,465,760.671,2.716931
163.908,395,653.188,2.879552
122.369,285,914.374,0.39616
109.207,416,761.189,2.081285
116.03,290,650.268,0.577872
163.201,416,923.113,2.438133
111.084,328,674.58,0.916561
122.761,287,666.949,0.604166
110.155,340,934.408,0.739582
86.5371,288,559.841,0.473709
166.142,335,597.4,1.64418
130.532,320,724.989,0.878664
121.274,473,856.432,3.159014
101.425,352,920.697,0.749445
151.44,475,949.149,3.91226
136.734,478,658.287,5.283986
87.4593,245,517.569,0.27017
122.963,246,874.935,0.24204
111.635,273,619.303,0.479081
159.578,421,667.537,3.535921
101.639,289,606.144,0.555696
95.2166,460,764.672,2.679789
95.6674,368,670.065,1.186478
85.6453,442,967.738,1.567891
135.6,302,971.447,0.555336
141.998,361,552.498,2.010457
112.474,399,502.596,2.684377
138.796,436,870.1684,2.734797
149.689,293,753.915,0.690834
83.3749,257,767.433,0.215278
89.5625,306,837.652,0.430494
165.828,326,837.162,1.074951
159.568,331,573.882,1.556945
149.955,265,976.37,0.365465
123.593,456,846.145,2.815806
165.928,259,517.504,0.638274
160.659,477,978.953,3.928356
141.506,439,632.117,4.052516
97.7028,285,589.586,0.517355
116.954,263,874.591,0.284913
99.2103,289,849.087,0.376924
126.038,456,853.361,2.853726
85.3648,383,904.816,0.936213
130.327,403,561.199,2.803842
151.116,426,647.095,3.595778
165.357,339,849.506,1.236306
121.996,371,752.1,1.498225
140.021,262,942.677,0.334679
159.432,306,546.568,1.130231
107.075,278,860.932,0.328289
101.019,464,786.896,2.875938
151.428,352,820.609,1.347606
100.711,478,800.094,3.026585
160.529,310,804.178,0.837346
165.355,427,941.024,2.83416
137.375,329,505.024,1.530846
145.591,356,807.728,1.370735
104.278,262,586.121,0.378608
93.01291,276,816.206,0.303645
135.514,365,536.449,2.157878
102.314,336,657.128,0.901701
123.194,258,888.61,0.289303
103.8906,278,601.662,0.466416
132.256,282,690.501,0.562387
94.9263,295,591.883,0.573951
152.346,314,783.639,0.896227
160.197,280,522.361,0.87515
93.3789,312,605.206,0.691151
142.416,473,920.241,3.521184
87.1115,350,626.355,0.936465
136.095,475,903.109,3.64582
112.95,344,697.484,1.094118
157.375,391,879.583,2.007646
136.507,405,831.698,1.981763
128.112,478,632.346,5.115691
110.479,293,886.831,0.407735
134.038,369,536.4065,2.120029
165.817,252,509.675,0.579899
89.4582,442,978.599,1.624992
156.715,346,580.467,1.713128
96.7155,291,593.02,0.526083
84.2095,329,845.66,0.561576
129.405,474,882.478,3.324816
136.258,248,666.997,0.358801
114.718,394,504.678,2.596464
128.001,269,913.798,0.330223
85.2643,371,642.193,1.129212
165.517,285,793.486,0.658315
140.992,295,729.936,0.651414
158.852,391,883.575,2.019842
131.931,445,609.075,4.108277
96.4373,334,637.429,0.894463
103.751,286,858.662,0.394028
146.486,328,781.466,1.025116
140.89,287,971.988,0.448973
112.878,416,771.876,2.02629
92.9882,245,784.123,0.205492
153.763,369,845.914,1.609227
121.591,374,753.988,1.464832
145.221,414,866.407,2.229708
147.97,336,793.608,1.125162
148.668,313,521.695,1.324533
112.817,405,760.59,1.936953
119.334,409,783.775,1.981238
149.014,400,863.832,2.106582
88.2732,268,543.865,0.392227
100.709,282,595.74,0.507095
109.598,305,896.61,0.494569
95.7916,375,928.357,0.94919
133.017,284,944.724,0.414993
117.194,385,502.164,2.314165
152.972,466,694.703,4.641687
121.092,377,505.648,2.189393
125.671,373,765.286,1.407128
155.157,245,720.863,0.348075
134.426,331,997.576,0.73746
147.37,408,866.864,2.136151
93.40194,345,639.242,0.981823
130.589,295,699.3,0.68943
147.527,325,531.276,1.428639
96.8794,384,690.284,1.457625
114.04,441,801.345,2.499462
121.209,269,894.229,0.317555
106.25,466,554.2,4.284825
110.408,297,890.755,0.428448
95.8346,289,588.094,0.537247
164.173,287,791.972,0.672153
109.528,455,552.729,4.032376
136.557,389,814.471,1.719944
88.14,462,745.903,2.44706
121.941,364,745.33,1.39934
89.0777,266,544.715,0.364699
107.792,279,614.345,0.507301
123.926,327,962.262,0.698859
125.852,405,549.388,2.953298
128.341,355,504.297,1.83722
91.2331,432,973.189,1.445556
109.159,302,892.491,0.475358
97.3906,308,863.494,0.493137
124.861,470,614.17,4.550238
143.734,278,971.13,0.424807
93.3897,309,851.632,0.46081
108.557,319,658.358,0.818629
147.93,325,782.717,0.948212
127.547,375,773.439,1.446573
136.672,340,764.417,1.064909
99.5151,304,614.93,0.624235
110.073,456,805.221,2.739118
101.783,309,627.44,0.704108
136.029,465,641.956,4.587735
92.7309,401,946.082,1.119929
130.253,348,753.355,1.183311
107.043,352,687.754,1.092276
116.255,253,612.124,0.354969
160.971,414,663.905,3.35523
138.602,411,594.147,3.072461
139.663,409,594.672,3.035583
87.8749,412,943.271,1.306972
127.534,371,519.368,2.224919
95.2951,326,875.654,0.59717
111.661,403,754.309,1.892783
112.937,383,737.514,1.519289
89.6918,407,943.083,1.211283
101.903,380,701.4,1.452827
101.661,477,551.951,4.505944
129.123,328,728.716,0.95405
162.809,379,882.951,1.744405
159.65,267,756.689,0.484398
162.492,267,765.231,0.488801
161.865,247,743.026,0.385144
105.63,465,551.081,4.244422
96.7884,475,784.994,3.025602
158.282,333,571.285,1.587623
98.4165,393,704.51,1.517876
123.314,358,992.712,0.970929
92.4473,378,920.706,0.950936
121.136,381,509.775,2.26716
156.377,475,713.6,5.007065
103.68,299,622.358,0.603363
144.733,430,881.635,2.544711
106.604,444,782.208,2.566898
127.403,385,532.988,2.392743
117.93,306,922.999,0.501698
135.854,298,717.533,0.696614
157.577,317,803.439,0.943918
105.887,371,954.614,0.937147
101.507,244,558.687,0.28953
98.4492,284,590.96,0.513129
145.025,415,617.33,3.236341
88.7932,368,649.315,1.129185
124.96,277,663.026,0.537288
112.246,290,638.753,0.596021
107.869,252,835.848,0.253711
142.868,293,734.305,0.672923
149.149,252,709.589,0.398301
106.978,389,975.714,1.122833
96.5179,350,654.585,1.052997
101.448,256,571.319,0.343306
108.973,430,524.408,3.197432
160.005,341,585.12,1.727208
88.925,328,608.727,0.758153
155.193,321,550.257,1.389957
91.4532,377,917.415,0.980089
87.66552,444,975.032,1.625051
160.664,461,711.872,4.586579
138.532,248,923.642,0.257367
143.705,331,776.377,1.047541
121.394,293,669.32,0.615242
84.3038,345,611.779,0.873125
140.596,408,596.854,3.169155
143.279,386,582.133,2.52613
161.795,367,617.425,2.230177
130.272,329,733.241,0.921028
133.664,424,592.504,3.354759
110.199,399,746.653,1.7235
123.274,359,743.597,1.342419
138.601,423,855.922,2.456085
122.077,427,811.054,2.220682
116.326,439,806.478,2.492384
135.265,390,562.036,2.55645
155.973,421,906.336,2.474341
128.805,250,897.28,0.265198
135.659,331,751.896,1.013759
133.979,387,804.83,1.755308
116.259,337,949.322,0.745327
140.152,353,538.627,1.856214
103.604,413,990.747,1.359951
102.99,372,946.234,0.975498
91.3816,348,886.378,0.733696
122.076,413,546.26,2.956611
166.661,348,612.773,1.783116
145.51,329,528.907,1.484218
157.88,321,558.045,1.327779
148.418,258,963.806,0.312667
114.07,437,797.382,2.421695
127.374,357,504.429,1.863244
117.446,434,804.736,2.410092
138.103,379,559.612,2.341378
116.987,268,630.56,0.45987
106.368,398,983.462,1.277375
87.4861,411,940.407,1.291886
158.505,353,593.442,1.840756
136.295,280,950.925,0.42069
142.729,381,824.69,1.64182
147.612,307,512.531,1.177582
83.546,413,930.944,1.205951
153.009,442,669.499,4.091884
160.347,257,999.192,0.324296
135.932,437,612.504,3.924861
140.312,279,712.067,0.530461
157.748,324,560.791,1.442579
126.15,322,963.907,0.668718
102.133,282,850.013,0.352046
136.958,400,827.629,1.999448
148.268,362,572.095,2.1652
153.034,255,724.424,0.421296
108.379,302,639.941,0.674123
117.228,290,904.278,0.430974
162.446,449,705.009,4.433173
90.5186,321,855.777,0.543081
105.349,450,784.988,2.665908
108.664,360,700.699,1.193433
116.023,320,681.84,0.861101
106.287,289,619.583,0.570802
95.7695,384,936.95,0.983033
114.662,479,593.193,4.865073
117.894,412,532.42,2.889723
131.979,364,775.388,1.329416
140.375,307,990.754,0.575499
93.4209,294,587.025,0.561072
156.797,417,904.592,2.521491
120.872,298,922.782,0.463458
91.3741,371,910.397,0.88058
90.9716,328,864.449,0.589664
147.62,446,907.944,2.929898
146.888,334,789.063,1.0418
156.935,408,896.283,2.332541
152.942,398,623.413,2.731236
158.514,398,889.995,2.149108
110.509,242,583.298,0.294505
109.27,461,558.169,4.199582
133.944,470,641.681,4.947665
84.3456,326,842.121,0.544382
128.801,342,742.385,1.105442
101.226,271,586.231,0.419821
93.3464,242,782.107,0.196873
99.2259,300,609.78,0.594866
163.249,426,683.973,3.532349
83.3614,324,837.224,0.527467
95.9537,284,583.236,0.480731
107.865,462,805.008,2.825183
99.9896,258,818.652,0.262195
85.9151,351,872.965,0.72166
121.428,323,950.237,0.626036
157.118,388,625.264,2.533902
100.443,283,596.59,0.512197
92.10411,395,938.247,1.16585
147.227,435,644.886,3.622062
100.757,376,943.741,0.997117
109.826,284,625.247,0.519918
90.1768,350,635.491,0.958206
98.1655,383,693.798,1.455837
151.756,468,942.97,3.71705
129.712,244,643.485,0.329663
165.179,448,712.404,4.214527
163.249,456,964.356,3.384594
99.494,291,601.613,0.53486
160.069,407,904.452,2.340691
157.153,426,915.4,2.591998
142.658,377,571.1649,2.446494
148.473,385,596.837,2.665599
98.7894,302,610.803,0.607082
115.191,266,622.331,0.444436
124.379,366,504.553,2.005795
141.648,338,527.398,1.691616
147.548,245,697.597,0.339603
140.224,437,876.396,2.636911
131.798,478,643.715,5.186556
114.01,442,552.466,3.749384
124.062,431,571.245,3.595029
119.958,303,925.461,0.515445
161.618,394,644.828,2.700467
144.878,473,927.757,3.561138
90.4134,339,874.852,0.661202
138.916,312,742.026,0.831187
153.966,357,583.795,1.894041
138.814,293,972.116,0.479859
116.934,267,879.224,0.316856
121.105,341,968.933,0.801271
125.182,364,755.07,1.354276
91.73692,320,858.868,0.516108
141.233,476,919.834,3.763466
145.532,370,821.879,1.573356
156.895,449,937.996,3.281281
130.901,305,960.274,0.56204
133.152,306,968.314,0.547608
119.606,423,799.236,2.120383
135.22,354,774.364,1.286161
96.502,248,547.757,0.298343
125.552,266,903.449,0.328612
97.2964,277,580.582,0.466351
147.327,374,831.956,1.645989
166.052,270,529.71,0.737996
161.388,344,592.482,1.695924
136.068,408,583.247,3.126404
97.3218,293,847.411,0.410589
141.27,379,819.115,1.599639
166.519,378,642.934,2.493857
134.815,354,773.183,1.283809
136.45,378,553.213,2.311698
124.084,350,986.596,0.897948
131.914,268,924.693,0.332513
155.291,295,523.465,1.092342
105.382,317,896.108,0.526189
137.602,361,538.649,2.09106
125.314,408,801.197,1.925418
141.227,430,871.097,2.504977
109.464,309,649.971,0.735893
122.604,467,854.343,3.043953
148.33,474,688.619,5.096172
124.882,321,709.1,0.909407
138.831,372,553.702,2.207575
95.01794,439,741.878,2.281153
96.7762,472,781.664,2.961106
149.537,407,622.432,2.91835
109.477,360,703.087,1.199167
109.21,367,959.877,0.970879
141.533,291,978.189,0.47416
91.8467,317,606.148,0.687156
108.165,268,854.029,0.288732
131.769,436,849.478,2.512868
164.266,301,806.075,0.761686
140.833,316,501.406,1.347514
146.699,340,793.757,1.111063
109.686,260,599.575,0.379341
132.297,280,688.395,0.548341
153.04,442,670.026,4.089773
143.946,474,925.652,3.573532
151.132,314,780.168,0.8921
86.0759,240,508.441,0.248787
161.975,249,995.02,0.304587
132.082,277,684.401,0.553562
135.993,315,735.754,0.80833
120.332,387,763.738,1.723303
161.57,382,632.122,2.430153
97.7159,375,933.621,0.916291
122.604,279,658.044,0.545651
109.366,334,925.957,0.654969
143.329,468,917.635,3.581134
115.727,461,577.459,4.113131
151.581,312,530.133,1.315356
144.925,440,643.629,3.929808
128.968,408,812.424,2.063245
149.729,384,599.308,2.525572
131.479,464,628.282,4.698964
84.0765,317,832.74,0.466396
141.599,332,770.56,0.99878
87.9008,249,523.28,0.301809
145.944,416,871.342,2.390278
161.473,471,725.01,4.941012
130.627,272,925.282,0.348892
134.968,372,792.822,1.531584
166.596,302,564.52,1.091789
122.393,437,822.484,2.411841
106.026,300,631.057,0.649772
147.1495,392,599.675,2.824461
112.124,330,680.292,0.895593
154.6899,338,565.676,1.658721
138.88,395,578.166,2.695215
93.114,260,800.074,0.256193
166.32,415,931.484,2.445485
147.717,245,948.427,0.269693
97.6585,300,855.177,0.427617
160.611,434,684.412,3.735402
140.96,429,619.486,3.750796
107.051,396,733.617,1.648004
94.5497,244,787.887,0.20483
124.277,450,591.098,3.94379
161.169,296,792.172,0.745116
153.684,290,762.898,0.641706
85.38046,389,661.523,1.329506
154.366,335,561.549,1.688516
135.422,453,627.729,4.410628
96.2384,381,685.445,1.343181
109.314,438,784.708,2.489266
135.03,381,552.344,2.362603
115.202,363,973.267,0.971449
160.711,440,690.55,3.916377
128.114,411,812.634,2.108951
122.012,445,579.959,3.956132
119.338,399,773.533,1.907355
94.0864,262,554.759,0.37606
145.706,242,939.307,0.255164
160.489,294,537.812,0.985016
120.227,403,779.989,1.890927
120.121,265,886.499,0.298541
83.6802,426,944.548,1.349564
144.49,366,565.025,2.226089
156.653,267,997.701,0.387316
129.026,346,997.967,0.885127
87.2989,325,599.992,0.72648
97.9443,450,763.083,2.411056
125.383,341,731.31,1.130173
161.859,303,801.392,0.773663
131.975,306,714.412,0.753668
137.636,330,506.677,1.547896
126.011,331,722.433,1.020244
116.167,272,881.37,0.321346
139.641,480,668.63,4.901081
90.0632,255,535.631,0.333128
163.332,386,642.532,2.656412
162.908,304,804.969,0.786295
122.109,467,852.56,3.194886
162.512,380,633.147,2.391323
137.062,349,524.852,1.864178
91.4961,272,807.545,0.28426
166.076,256,514.937,0.644893
127.493,432,832.862,2.379579
83.9474,289,553.027,0.470589
86.8071,278,799.555,0.296139
85.0758,322,590.359,0.691674
91.9084,416,709.192,1.851912
91.0397,336,873.327,0.643785
126.048,291,680.87,0.644327
110.321,439,538.746,3.607784
113.467,292,894.148,0.432229
121.45,357,986.251,0.903661
137.488,452,883.393,2.932844
116.71,391,757.132,1.752061
123.099,401,786.859,1.791855
117.484,320,935.408,0.590406
160.365,476,726.569,5.105158
149.229,463,930.294,3.368215
119.667,437,563.976,3.520034
111.426,243,837.826,0.215782
139.228,331,512.625,1.568827
103.402,450,529.381,3.594244
85.2698,431,954.722,1.428381
146.55,264,964.175,0.337967
89.6539,288,819.12,0.362667
149.883,369,834.003,1.508105
85.8003,370,642.683,1.18186
160.624,421,920.486,2.519685
149.617,264,724.025,0.449134
91.7589,244,529.692,0.28783
162.932,337,840.303,1.141796
148.182,251,705.789,0.391197
149.863,247,957.101,0.280678
105.722,469,555.859,4.146709
93.8087,258,800.443,0.238174
145.13,446,900.105,3.047139
146.388,353,557.158,1.979797
91.3619,435,977.5015,1.560266
100.012,360,925.459,0.846236
128.7,450,604.943,4.007063
107.928,285,620.929,0.547595
95.9094,364,666.559,1.203079
98.1339,324,881.679,0.568703
108.98,459,554.701,3.937107
85.5647,414,937.755,1.30272
124.136,423,813.491,2.171538
134.841,401,821.831,1.998694
89.5189,328,859.84,0.582612
96.2868,452,759.78,2.419906
138.796,307,985.896,0.570996
138.68,446,880.246,2.96042
148.026,278,733.928,0.539029
151.242,460,682.519,4.424746
163.613,430,688.462,3.653646
118.557,341,711.326,1.092284
159.08,289,777.776,0.645725
114.628,361,719.601,1.246429
116.526,378,993.021,1.135477
95.0329,445,748.136,2.390143
130.326,462,872.212,3.214429
108.621,437,780.598,2.343921
86.2141,307,828.202,0.423363
96.4935,399,705.554,1.577175
161.474,363,612.894,2.038307
111.294,421,522.024,3.173612
124.156,448,589.151,3.882128
97.4526,333,639.73,0.890624
133.066,351,764.869,1.174341
136.168,420,596.142,3.276539
107.568,437,528.357,3.512718
89.7548,273,553.402,0.401841
142.263,379,571.297,2.371334
115.158,467,831.755,3.069238
104.776,407,988.229,1.368702
86.503,472,501.105,3.793093
135.251,256,922.564,0.285022
84.2086,390,908.408,1.038527
143.227,351,794.981,1.22772
90.87761,368,656.108,1.146005
139.25,269,697.933,0.48744
162.398,480,986.941,4.249351
138.992,390,572.927,2.716128
106.618,463,551.686,4.002492
97.65,274,578.227,0.449912
84.0632,372,640.065,1.186487
148.725,393,855.074,1.977173
157.357,323,559.001,1.354037
156.99,450,939.731,3.147968
83.38746,247,757.05,0.19556
93.9232,385,932.328,1.028841
99.1594,254,811.659,0.246085
149.88,245,955.243,0.259067
141.651,260,696.09,0.434431
88.66588,367,897.978,0.868798
93.0679,377,921.765,0.994018
98.83,307,616.097,0.643357
93.4326,436,734.48,2.20077
166.6,413,929.857,2.528134
139.697,420,856.316,2.288521
112.081,398,500.401,2.658712
110.142,395,742.119,1.747861
89.9431,442,980.489,1.631433
110.99,319,914.928,0.559686
104.503,457,789.95,2.661053
151.683,453,927.388,3.15088
149.587,250,709.62,0.367876
111.695,449,553.223,3.710374
92.3999,245,532.42,0.293303
166.24,261,770.824,0.477883
97.50459,418,728.026,1.865814
156.191,425,660.903,3.441432
116.534,459,577.893,4.069568
136.474,265,935.474,0.326346
153.074,365,839.237,1.468981
104.284,295,620.552,0.606418
108.689,290,628.569,0.58469
137.498,400,829.554,2.003707
163.16,317,819.858,0.962456
164.158,465,727.064,5.012946
127.282,290,683.9,0.608927
89.5528,270,549.791,0.406055
148.929,420,634.478,3.236269
136.092,271,691.055,0.494318
137.674,334,511.337,1.610729
109.659,407,753.34,1.933814
146.663,452,910.494,3.061124
132.317,420,584.624,3.399017
156.02,448,934.612,3.086679
94.84,387,937.892,1.002776
155.957,428,664.043,3.701494
142.362,242,679.499,0.318571
147.523,300,755.265,0.746073
97.1768,448,757.883,2.363685
87.3951,320,595.386,0.688546
129.975,269,670.267,0.46982
119.113,338,958.977,0.729275
91.9974,270,557.324,0.392009
154.782,456,939.362,3.43498
133.2,346,760.083,1.116484
121.981,275,652.757,0.516113
122.314,478,614.974,4.99696
102.594,372,694.78,1.355819
87.2952,255,777.003,0.216506
130.918,409,568.591,3.102303
84.81,291,557.355,0.485409
115.62,337,697.445,0.98349
117.221,338,704.242,1.051434
140.496,463,904.277,3.236292
150.2,332,546.06,1.54584
149.769,243,952.013,0.264029
135.654,325,995.11,0.729111
88.8024,455,740.879,2.454315
107.342,461,802.531,2.93471
127.102,361,507.634,2.030915
92.1272,379,921.08,1.005157
135.151,467,892.206,3.250981
89.6029,362,895.785,0.793472
122.228,460,595.626,4.413353
155.667,427,661.947,3.48861
128.913,373,525.551,2.163619
90.4703,458,748.82,2.420622
121.977,456,591.346,4.281457
116.197,290,650.923,0.607577
120.646,398,776.816,1.812326
106.774,274,605.515,0.473571
101.906,274,841.588,0.331761
166.116,247,506.039,0.568348
146.962,354,809.248,1.285246
145.33,416,619.194,3.429306
100.273,321,885.09,0.586592
84.3269,386,905.446,0.952947
107.184,312,896.446,0.502611
98.94027,305,614.891,0.661026
102.255,290,608.427,0.537406
133.292,307,719.847,0.728145
143.7,371,567.879,2.213761
163.535,440,948.681,3.133737
109.071,253,840.986,0.259348
114.304,418,528.661,2.981894
119.43,456,583.376,4.239751
98.1594,467,530.464,3.937071
159.557,358,601.597,2.037865
157.414,271,754.761,0.507376
131.987,465,880.849,3.151193
130.095,444,603.188,3.852503
161.809,368,868.958,1.642057
114.777,382,742.476,1.520223
116.852,477,597.626,4.612458
113.602,400,757.076,1.775408
100.964,407,977.306,1.329187
115.512,479,595.726,4.646562
112.415,476,832.568,3.225676
94.7706,284,830.0347,0.359177
92.4436,453,749.389,2.368365
126.986,295,938.119,0.462423
129.961,325,978.745,0.672266
113.376,360,715.33,1.225025
91.7267,404,695.732,1.67347
128.468,410,562.579,3.100767
148.483,406,618.025,3.038384
119.716,405,531.042,2.749787
156.159,256,735.02,0.431631
154.319,274,998.842,0.422155
108.301,321,908.932,0.591761
134.494,347,765.042,1.13454
104.584,248,572.455,0.3278
104.482,380,958.816,1.065679
140.708,363,799.771,1.369994
156.212,264,993.359,0.370524
145.615,377,579.561,2.349185
123.334,425,562.915,3.424803
159.703,413,659.521,3.150929
113.705,373,729.733,1.390245
160.037,399,645.288,2.807765
90.32237,241,771.91,0.189321
126.795,296,938.876,0.467625
118.891,330,950.78,0.666453
85.414,403,925.771,1.181284
89.8784,341,624.625,0.919591
142.321,273,710.8472,0.494649
100.017,436,504.223,3.201443
87.683,432,962.664,1.547322
116.751,362,727.1757,1.272865
119.254,299,669.015,0.654873
145.101,408,860.601,2.114246
130.482,249,650.372,0.356253
91.59577,305,842.629,0.454597
136.836,241,661.062,0.340374
165.593,406,669.211,3.177427
110.967,355,703.012,1.150509
92.4554,349,890.648,0.712247
149.276,417,881.789,2.446444
114.025,435,794.838,2.503096
86.6976,258,529.267,0.322308
156.672,416,653.562,3.202868
111.159,470,572.594,4.510775
144.348,449,900.281,3.111119
124.512,279,914.195,0.37077
138.915,364,545.765,2.052843
159.141,357,849.357,1.38758
91.19071,398,688.003,1.58295
95.9351,323,874.088,0.58052
137.011,392,569.746,2.744029
88.3467,383,663.689,1.291202
126.453,368,763.079,1.345712
121.202,329,956.382,0.703143
143.976,312,757.198,0.848019
147.499,370,827.959,1.508058
95.8534,273,822.127,0.298067
88.0912,474,507.77,4.087276
156.509,268,998.859,0.392345
84.1243,325,841.18,0.536805
165.268,401,913.175,2.264253
99.8544,384,949.209,1.068822
104.643,365,943.692,0.876022
157.249,331,816.519,1.102963
124.288,304,689.668,0.711133
116.715,245,855.177,0.218508
104.735,311,887.804,0.514044
134.352,408,578.101,3.109829
109.279,275,614.797,0.461881
115.291,361,722.424,1.312611
101.136,355,672.808,1.085754
119.185,291,660.494,0.624335
102.452,346,667.988,1.051097
138.563,334,513.332,1.53787
102.039,251,817.632,0.228732
159.587,425,671.027,3.474209
132.182,334,994.732,0.791144
129.575,259,908.6,0.303972
138.802,390,822.766,1.752421
92.3622,342,633.592,0.898449
100.269,347,911.92,0.705262
97.9319,436,997.824,1.663377
145.565,349,550.14,1.902744
160.321,266,508.314,0.768815
104.614,464,797.108,2.949135
113.221,439,796.728,2.571299
92.0058,284,571.799,0.4928
122.784,458,595.08,4.150903
135.728,244,661.844,0.337225
164.193,271,525.117,0.785057
158.872,346,836.806,1.302044
108.252,394,984.868,1.186712
140.22,324,757.7002,0.91033
86.9968,477,507.853,3.93011
117.124,421,790.38,2.163316
121.945,250,626.441,0.348592
89.04147,416,700.057,1.812889
133.877,444,864.046,2.706988
97.4956,299,603.807,0.581462
106.435,298,879.307,0.444701
93.2655,244,784.346,0.20274
163.598,384,641.169,2.482625
107.364,437,776.8,2.442678
122.502,412,796.772,2.066605
136.586,262,932.252,0.313072
161.453,345,843.245,1.237673
159.736,360,854.704,1.432466
162.229,283,781.385,0.635063
159.193,441,936.534,2.957367
127.242,400,548.245,2.710933
114.489,466,578.406,4.455808
145.51,359,810.178,1.343355
164.451,447,958.956,3.325704
140.596,441,630.979,3.909183
113.065,266,866.287,0.305219
142.878,394,588.596,2.841571
99.4176,443,510.004,3.528472
155.792,284,512.773,0.914301
130.905,440,601.191,3.752173
84.5127,393,913.284,1.018344
101.256,369,688.491,1.305503
135.574,301,970.316,0.54848
120.174,437,815.55,2.508144
106.753,335,918.7664,0.650522
154.631,324,801.01,1.011913
154.499,477,960.538,4.022342
97.9587,344,652.059,0.952842
144.759,425,877.474,2.564504
84.9138,295,812.507,0.379912
127.675,427,577.689,3.534115
133.242,405,571.408,2.879724
153.324,382,857.496,1.731161
128.337,285,681.757,0.574754
112.362,403,507.282,2.630341
87.36509,430,959.565,1.445147
106.073,372,955.904,0.997319
119.864,289,910.208,0.411359
154.515,338,565.672,1.656678
115.424,301,909.494,0.489388
110.167,305,897.875,0.496668
120.646,421,550.548,3.289155
93.2253,470,519.456,3.900936
133.647,249,660.807,0.360198
138.82,361,792.179,1.401318
119.118,334,955.523,0.733725
90.8907,419,958.662,1.291509
157.863,378,867.665,1.781719
100.735,458,528.823,3.94967
122.777,386,520.734,2.375003
85.2022,274,541.381,0.414676
128.323,270,665.852,0.497035
119.8,377,752.029,1.49211
150.78,415,634.646,3.289954
129.543,308,959.845,0.549956
123.922,284,917.395,0.39479
100.49,411,979.884,1.372075
108.735,280,867.406,0.359022
116.275,460,577.867,4.095533
90.2929,242,772.474,0.192287
155.701,385,618.262,2.457875
139.277,388,571.502,2.544602
135.215,375,546.122,2.244414
117.262,409,777.965,2.055878
101.541,268,584.278,0.404134
105.814,448,784.454,2.632751
112.686,349,951.622,0.827369
154.61,443,925.553,2.947878
112.104,256,853.392,0.263053
112.818,346,948.446,0.763079
109.104,310,650.546,0.706228
99.3069,443,759.819,2.307014
101.79,384,955.5082,1.030428
95.2233,371,922.217,0.909089
120.15,302,675.44,0.71536
151.386,409,880.492,2.301965
164.614,363,622.483,2.052
164.079,338,843.841,1.159894
137.008,410,588.551,3.031632
140.142,472,912.262,3.458132
159.653,241,729.564,0.332562
139.914,259,939.337,0.320378
95.2894,309,857.495,0.467782
115.901,424,789.324,2.203499
155.991,277,506.941,0.837637
149.12,325,535.684,1.506407
148.27,342,550.747,1.788139
124.128,469,860.535,3.279604
134.872,316,733.435,0.813693
88.90001,428,962.321,1.513039
159.148,247,984.735,0.292035
158.614,282,769.796,0.589082
154.401,442,673.787,3.904615
125.175,425,568.54,3.447108
156.114,431,667.448,3.604722
133.733,252,913.578,0.280451
142.91,410,855.903,2.240899
154.826,432,914.612,2.835908
104.408,439,770.713,2.31574
87.8684,333,610.854,0.833888
165.403,479,745.439,5.289527
158.34,417,909.176,2.536849
143.256,335,779.153,1.091771
166.016,462,979.658,3.761059
146.844,468,677.69,4.620528
137.7,280,954.648,0.423868
101.25,460,532.8,4.012322
112.313,406,760.004,1.854882
107.366,340,676.766,1.017522
156.067,259,738.057,0.450207
145.726,281,730.234,0.555726
143.096,259,948.974,0.309467
164.072,359,616.08,1.974923
105.637,418,502.047,2.878395
108.928,423,517.929,3.1849
164.034,316,571.303,1.272187
164.447,263,517.458,0.707353
123.797,354,990.327,0.88854
146.793,450,659.396,4.262173
108.662,359,949.603,0.892859
165.611,402,665.259,2.920204
102.434,477,803.73,3.043161
118.724,281,898.427,0.368232
145.861,314,514.53,1.267393
138.806,368,549.98,2.234848
142.955,438,884.9992,2.831703
120.447,251,623.208,0.369069
133.611,353,768.251,1.26457
107.697,369,957.571,0.979715
147.194,267,719.86,0.464062
95.2953,310,858.889,0.49702
108.306,455,548.872,4.010999